Timestamp,AccX,AccY,AccZ,GyroX,GyroY,GyroZ,MagX,MagY,MagZ
1707067580367,-0.5617151,-0.03798606,9.846166,6.1084726E-4,-0.0019088977,1.5271181E-4,-4.425,-32.5875,-22.66875
1707067580565,-0.55363935,-0.0424726,9.855139,3.8177954E-4,-0.00167983,1.5271181E-4,-4.2000003,-32.475002,-22.650002
1707067580765,-0.5623133,-0.039780676,9.857233,4.5813544E-4,-0.001603474,1.5271181E-4,-4.1062503,-32.49375,-22.59375
1707067580965,-0.5632106,-0.03888337,9.858429,5.344914E-4,-0.0019088977,1.5271181E-4,-4.1062503,-32.737503,-22.575
1707067581165,-0.5599205,-0.040677983,9.855438,6.1084726E-4,-0.0018325418,2.2906772E-4,-4.1062503,-32.71875,-22.5
1707067581367,-0.5599205,-0.03918247,9.862318,3.8177954E-4,-0.0015271181,4.5813544E-4,-4.0687504,-32.362503,-22.575
1707067581569,-0.5566304,-0.041874398,9.857532,5.344914E-4,-0.0018325418,7.635591E-5,-4.0687504,-32.30625,-22.556252
1707067581771,-0.5560322,-0.038285162,9.855438,6.1084726E-4,-0.001603474,4.5813544E-4,-4.05,-32.287502,-22.5
1707067581974,-0.5620142,-0.037686955,9.858429,3.8177954E-4,-9.162709E-4,8.39915E-4,-3.99375,-32.100002,-22.44375
1707067582176,-0.56141603,-0.038584266,9.860523,4.5813544E-4,-0.0014507623,1.5271181E-4,-3.9750001,-31.931252,-22.48125
1707067582378,-0.55812585,-0.04516453,9.856934,5.344914E-4,-0.0019088977,-7.635591E-5,-3.9375002,-31.7625,-22.462502
1707067582580,-0.56350976,-0.043070808,9.84796,5.344914E-4,-0.001603474,3.8177954E-4,-3.9562502,-31.5375,-22.44375
1707067582782,-0.5667999,-0.038285162,9.850653,5.344914E-4,-0.0018325418,-7.635591E-5,-3.9375002,-31.406252,-22.48125
1707067582985,-0.5599205,-0.03888337,9.856635,5.344914E-4,-0.0017561859,-0.0,-3.9,-31.44375,-22.462502
1707067583187,-0.56111693,-0.03619144,9.855139,6.1084726E-4,-0.0015271181,2.2906772E-4,-3.8812501,-31.406252,-22.48125
1707067583389,-0.5703891,-0.040378883,9.856934,4.5813544E-4,-0.00167983,1.5271181E-4,-3.8437502,-31.29375,-22.59375
1707067583592,-0.5617151,-0.040677983,9.857233,5.344914E-4,-0.0015271181,4.5813544E-4,-3.825,-31.44375,-22.612501
1707067583793,-0.56410795,-0.043070808,9.856336,3.8177954E-4,-0.0014507623,1.5271181E-4,-3.8625002,-31.612501,-22.556252
1707067583996,-0.5620142,-0.04127619,9.859028,4.5813544E-4,-0.00167983,4.5813544E-4,-3.8625002,-31.650002,-22.5375
1707067584198,-0.5593223,-0.034396827,9.860224,5.344914E-4,-0.0013744063,7.635591E-5,-3.8812501,-31.687502,-22.575
1707067584400,-0.56560344,-0.043070808,9.851251,5.344914E-4,-0.0015271181,1.5271181E-4,-3.8437502,-31.706251,-22.59375
1707067584603,-0.5623133,-0.04336991,9.858728,6.1084726E-4,-0.0015271181,4.5813544E-4,-3.91875,-31.7625,-22.5375
1707067584805,-0.5623133,-0.038584266,9.854541,5.344914E-4,-0.00167983,2.2906772E-4,-3.9,-31.725,-22.518751
1707067585008,-0.5596214,-0.038584266,9.857233,6.8720314E-4,-0.0015271181,3.8177954E-4,-3.9562502,-31.781252,-22.44375
1707067585210,-0.55812585,-0.040378883,9.857532,3.0542363E-4,-0.001603474,3.8177954E-4,-3.9375002,-31.650002,-22.462502
1707067585412,-0.56350976,-0.04516453,9.862019,7.635591E-4,-0.0014507623,7.635591E-5,-3.9562502,-31.556252,-22.5
1707067585614,-0.5605187,-0.037387855,9.861121,4.5813544E-4,-0.0019088977,6.8720314E-4,-3.99375,-31.575,-22.425001
1707067585816,-0.5632106,-0.048155557,9.856036,5.344914E-4,-0.0020616094,1.5271181E-4,-3.91875,-31.5375,-22.44375
1707067586019,-0.55752766,-0.04366901,9.851849,6.1084726E-4,-0.0017561859,3.8177954E-4,-4.05,-31.556252,-22.3875
1707067586222,-0.5599205,-0.03888337,9.862617,3.8177954E-4,-0.00167983,1.5271181E-4,-4.0125003,-31.650002,-22.44375
1707067586423,-0.5617151,-0.043968115,9.859028,5.344914E-4,-0.0017561859,-0.0,-4.05,-31.612501,-22.425001
1707067586626,-0.55812585,-0.03918247,9.859028,4.5813544E-4,-0.0015271181,4.5813544E-4,-4.05,-31.575,-22.44375
1707067586828,-0.55393845,-0.039780676,9.857831,4.5813544E-4,-0.0014507623,0.0,-4.1062503,-31.650002,-22.44375
1707067587030,-0.5587241,-0.042173497,9.858728,4.5813544E-4,-0.0022143214,6.1084726E-4,-4.1062503,-31.63125,-22.44375
1707067587232,-0.5566304,-0.041575294,9.857831,5.344914E-4,-0.0015271181,2.2906772E-4,-4.18125,-31.63125,-22.518751
1707067587436,-0.5587241,-0.040378883,9.856036,5.344914E-4,-0.00167983,2.2906772E-4,-4.21875,-31.63125,-22.518751
1707067587637,-0.55334026,-0.040378883,9.861719,5.344914E-4,-0.00167983,3.8177954E-4,-4.1062503,-31.44375,-22.5375
1707067587840,-0.5557331,-0.042173497,9.856036,6.1084726E-4,-0.00167983,3.8177954E-4,-4.14375,-31.218752,-22.556252
1707067588042,-0.55782676,-0.04546363,9.856934,4.5813544E-4,-0.0017561859,2.2906772E-4,-4.1625004,-31.237501,-22.612501
1707067588245,-0.55423754,-0.041575294,9.859925,4.5813544E-4,-0.0015271181,3.0542363E-4,-4.125,-31.1625,-22.575
1707067588447,-0.5593223,-0.04127619,9.860224,4.5813544E-4,-0.0018325418,3.0542363E-4,-4.0687504,-30.993752,-22.59375
1707067588649,-0.5605187,-0.04127619,9.856635,5.344914E-4,-0.001603474,1.5271181E-4,-4.05,-30.88125,-22.518751
1707067588851,-0.5599205,-0.042173497,9.859326,5.344914E-4,-0.0015271181,1.5271181E-4,-3.9375002,-30.7875,-22.556252
1707067589054,-0.55423754,-0.042173497,9.859626,3.8177954E-4,-0.0015271181,7.635591E-5,-3.9750001,-30.7875,-22.518751
1707067589256,-0.55812585,-0.03888337,9.858728,3.0542363E-4,-0.0015271181,2.2906772E-4,-4.0687504,-30.806252,-22.5
1707067589459,-0.55722857,-0.0424726,9.859925,4.5813544E-4,-0.001603474,2.2906772E-4,-4.03125,-30.843752,-22.518751
1707067589661,-0.5602196,-0.041575294,9.859925,5.344914E-4,-0.001603474,-0.0,-3.9750001,-30.7875,-22.5
1707067589863,-0.55453664,-0.040378883,9.859626,5.344914E-4,-0.0014507623,-0.0,-4.0125003,-30.768751,-22.5375
1707067590065,-0.5605187,-0.041874398,9.858728,5.344914E-4,-0.001603474,7.635591E-5,-4.0125003,-30.750002,-22.575
1707067590268,-0.55812585,-0.039780676,9.860523,4.5813544E-4,-0.001603474,3.0542363E-4,-4.0687504,-30.843752,-22.612501
1707067590470,-0.5593223,-0.041575294,9.861121,5.344914E-4,-1.5271181E-4,7.635591E-5,-4.05,-30.843752,-22.575
1707067590672,-0.5665008,-0.034396827,9.854541,5.344914E-4,6.8720314E-4,-8.39915E-4,-4.03125,-30.675001,-22.59375
1707067590874,-0.55064833,-0.03918247,9.862318,7.635591E-4,1.5271181E-4,-8.39915E-4,-3.9375002,-30.6375,-22.63125
1707067591077,-0.57906306,-0.03499503,9.850353,4.5813544E-4,-0.0035887277,-0.0011453386,-3.9562502,-30.656252,-22.59375
1707067591279,-0.53988063,-0.034097724,9.851251,6.1084726E-4,-0.0026724567,-3.0542363E-4,-4.03125,-30.581251,-22.612501
1707067591481,-0.56111693,-0.042173497,9.861421,3.8177954E-4,-0.0013744063,3.0542363E-4,-3.99375,-30.54375,-22.66875
1707067591683,-0.5554339,-0.037387855,9.859626,6.1084726E-4,-0.0014507623,4.5813544E-4,-3.91875,-30.525002,-22.66875
1707067591885,-0.56530434,-0.040378883,9.860224,5.344914E-4,-0.0015271181,1.5271181E-4,-3.8625002,-30.393751,-22.706251
1707067592088,-0.5662017,-0.044566322,9.863514,6.1084726E-4,-0.0015271181,-3.8177954E-4,-3.9,-30.31875,-22.7625
1707067592290,-0.54317075,-0.037387855,9.864711,3.8177954E-4,-0.0026724567,1.5271181E-4,-3.8625002,-30.35625,-22.81875
1707067592492,-0.57427746,-0.04127619,9.859028,3.8177954E-4,-0.0010689828,0.0,-3.9,-30.487501,-22.81875
1707067592694,-0.5566304,-0.03888337,9.859626,6.8720314E-4,0.0,1.5271181E-4,-3.9375002,-30.468752,-22.837502
1707067592897,-0.5617151,-0.044865426,9.864411,6.8720314E-4,-0.0012216945,-7.635591E-5,-3.9375002,-30.525002,-22.800001
1707067593099,-0.56111693,-0.043968115,9.859326,6.1084726E-4,-0.0013744063,2.2906772E-4,-3.9375002,-30.6,-22.800001
1707067593301,-0.5590232,-0.040977087,9.862916,8.39915E-4,-0.0014507623,-1.5271181E-4,-3.99375,-30.656252,-22.800001
1707067593504,-0.558425,-0.0424726,9.8632145,5.344914E-4,-0.0015271181,-7.635591E-5,-4.03125,-30.675001,-22.800001
1707067593706,-0.5629115,-0.0424726,9.865608,3.8177954E-4,-0.0015271181,-1.5271181E-4,-4.0125003,-30.6375,-22.7625
1707067593908,-0.5608178,-0.042173497,9.859925,6.1084726E-4,-0.001603474,-1.5271181E-4,-4.1062503,-30.656252,-22.706251
1707067594111,-0.5623133,-0.04007978,9.863813,7.635591E-4,-0.001603474,-0.0,-4.1062503,-30.525002,-22.7625
1707067594313,-0.56380886,-0.038584266,9.861719,4.5813544E-4,-0.001603474,-7.635591E-5,-4.14375,-30.525002,-22.78125
1707067594515,-0.56380886,-0.044566322,9.861719,4.5813544E-4,-0.0015271181,1.5271181E-4,-4.125,-30.618752,-22.743752
1707067594717,-0.5599205,-0.039481573,9.861421,5.344914E-4,-0.0014507623,-2.2906772E-4,-4.18125,-30.6,-22.743752
1707067594919,-0.55752766,-0.03888337,9.866206,4.5813544E-4,-0.0012980504,-3.0542363E-4,-4.2562504,-30.656252,-22.743752
1707067595122,-0.56380886,-0.041575294,9.865309,3.8177954E-4,-0.0014507623,-1.5271181E-4,-4.21875,-30.712502,-22.66875
1707067595325,-0.56380886,-0.03798606,9.863514,3.8177954E-4,-0.0015271181,-3.0542363E-4,-4.2375,-30.7875,-22.650002
1707067595526,-0.5590232,-0.03589234,9.868897,4.5813544E-4,-0.0015271181,-3.8177954E-4,-4.14375,-30.768751,-22.650002
1707067595729,-0.5605187,-0.043070808,9.864112,3.8177954E-4,-0.0015271181,-2.2906772E-4,-4.125,-30.843752,-22.612501
1707067595931,-0.5629115,-0.04426722,9.863813,2.2906772E-4,-0.0014507623,-2.2906772E-4,-4.05,-30.825,-22.612501
1707067596134,-0.5632106,-0.037686955,9.864711,6.1084726E-4,-0.0014507623,-7.635591E-5,-4.0687504,-30.73125,-22.63125
1707067596335,-0.56470615,-0.03918247,9.865309,7.635591E-4,-0.001603474,-7.635591E-5,-4.0125003,-30.712502,-22.59375
1707067596538,-0.5629115,-0.03918247,9.865608,4.5813544E-4,-0.0014507623,-2.2906772E-4,-4.0125003,-30.656252,-22.518751
1707067596741,-0.5599205,-0.036490545,9.866505,3.8177954E-4,-0.001603474,1.5271181E-4,-4.05,-30.825,-22.59375
1707067596942,-0.55752766,-0.036490545,9.870394,6.8720314E-4,-0.0013744063,-7.635591E-5,-4.0125003,-30.825,-22.706251
1707067597144,-0.56410795,-0.04007978,9.864411,3.8177954E-4,-0.0013744063,-2.2906772E-4,-4.0125003,-30.825,-22.7625
1707067597347,-0.56111693,-0.040677983,9.866206,5.344914E-4,-0.0014507623,-0.0,-3.99375,-30.750002,-22.78125
1707067597549,-0.5632106,-0.04007978,9.866505,6.1084726E-4,-0.001603474,-7.635591E-5,-3.91875,-30.768751,-22.800001
1707067597752,-0.56141603,-0.036490545,9.865309,6.1084726E-4,-0.0014507623,-2.2906772E-4,-3.9,-30.73125,-22.800001
1707067597954,-0.56590253,-0.040677983,9.861421,6.1084726E-4,-0.0014507623,-1.5271181E-4,-3.8812501,-30.675001,-22.743752
1707067598156,-0.5596214,-0.040378883,9.868599,3.8177954E-4,-0.00167983,-7.635591E-5,-3.8437502,-30.675001,-22.78125
1707067598358,-0.5605187,-0.03918247,9.865608,4.5813544E-4,-0.0014507623,-0.0,-3.8437502,-30.487501,-22.6875
1707067598561,-0.5623133,-0.040977087,9.865907,5.344914E-4,-0.0014507623,-2.2906772E-4,-3.80625,-30.487501,-22.575
1707067598763,-0.5590232,-0.03619144,9.869795,5.344914E-4,-0.0012216945,0.0,-3.8625002,-30.6,-22.5375
1707067598966,-0.5617151,-0.04127619,9.866505,3.8177954E-4,-0.001603474,-7.635591E-5,-3.91875,-30.73125,-22.5
1707067599167,-0.5620142,-0.038584266,9.864711,3.8177954E-4,-0.0012216945,-2.2906772E-4,-3.8812501,-30.768751,-22.59375
1707067599370,-0.567099,-0.03798606,9.866505,4.5813544E-4,-0.0014507623,-1.5271181E-4,-3.9375002,-30.843752,-22.650002
1707067599572,-0.5626124,-0.03678965,9.864112,7.635591E-4,-0.0012980504,-7.635591E-5,-3.9562502,-30.806252,-22.650002
1707067599774,-0.5599205,-0.040677983,9.865608,6.8720314E-4,-0.0014507623,-2.2906772E-4,-3.91875,-30.806252,-22.706251
1707067599976,-0.56350976,-0.04007978,9.866804,5.344914E-4,-0.0013744063,-1.5271181E-4,-4.03125,-30.768751,-22.743752
1707067600179,-0.5596214,-0.040677983,9.8632145,5.344914E-4,-0.0012980504,-7.635591E-5,-4.0125003,-30.675001,-22.800001
1707067600381,-0.55752766,-0.03678965,9.865907,6.8720314E-4,-0.0015271181,-2.2906772E-4,-4.0125003,-30.525002,-22.81875
1707067600584,-0.55812585,-0.04127619,9.865009,6.1084726E-4,-0.0012216945,-7.635591E-5,-4.1062503,-30.581251,-22.7625
1707067600785,-0.5605187,-0.039780676,9.870692,6.8720314E-4,-0.0012216945,-2.2906772E-4,-4.14375,-30.675001,-22.7625
1707067600988,-0.5662017,-0.041575294,9.866206,3.8177954E-4,-0.0014507623,0.0,-4.14375,-30.69375,-22.743752
1707067601190,-0.56440705,-0.04007978,9.868001,3.0542363E-4,-0.00167983,-3.8177954E-4,-4.1062503,-30.675001,-22.800001
1707067601392,-0.5617151,-0.03888337,9.865608,4.5813544E-4,-0.0018325418,-0.0,-4.1062503,-30.562502,-22.893751
1707067601595,-0.55722857,-0.038285162,9.865009,3.8177954E-4,-0.0013744063,-3.0542363E-4,-4.0125003,-30.6,-22.875
1707067601797,-0.5599205,-0.041874398,9.866505,4.5813544E-4,-0.0012980504,-1.5271181E-4,-3.9750001,-30.618752,-22.85625
1707067601999,-0.55752766,-0.04007978,9.868599,6.1084726E-4,-0.0013744063,-1.5271181E-4,-3.91875,-30.675001,-22.875
1707067602201,-0.5605187,-0.04007978,9.866804,5.344914E-4,-0.0015271181,-2.2906772E-4,-3.8625002,-30.6375,-22.875
1707067602404,-0.55513483,-0.041575294,9.864711,4.5813544E-4,-0.0013744063,-7.635591E-5,-3.8625002,-30.54375,-22.85625
1707067602606,-0.5560322,-0.040677983,9.864112,5.344914E-4,-0.0013744063,-3.0542363E-4,-3.80625,-30.487501,-22.875
1707067602809,-0.5617151,-0.040977087,9.8632145,4.5813544E-4,-0.0014507623,-3.8177954E-4,-3.7875001,-30.562502,-22.837502
1707067603011,-0.5590232,-0.037686955,9.867104,4.5813544E-4,-0.0015271181,-1.5271181E-4,-3.7875001,-30.768751,-22.78125
1707067603213,-0.5623133,-0.04007978,9.8632145,5.344914E-4,-0.0013744063,-1.5271181E-4,-3.80625,-30.750002,-22.800001
1707067603415,-0.5632106,-0.043070808,9.865009,3.8177954E-4,-0.0013744063,-7.635591E-5,-3.825,-30.69375,-22.7625
1707067603618,-0.558425,-0.038584266,9.865608,6.1084726E-4,-0.0014507623,-3.8177954E-4,-3.80625,-30.73125,-22.6875
1707067603820,-0.5590232,-0.040378883,9.865907,3.8177954E-4,-0.0012980504,0.0,-3.80625,-30.675001,-22.706251
1707067604022,-0.5566304,-0.040378883,9.870992,3.8177954E-4,-0.0012980504,-3.8177954E-4,-3.7687502,-30.581251,-22.6875
1707067604224,-0.5620142,-0.03499503,9.867402,4.5813544E-4,-0.0014507623,-3.0542363E-4,-3.825,-30.562502,-22.725
1707067604427,-0.5590232,-0.037686955,9.868001,6.1084726E-4,-0.0014507623,-2.2906772E-4,-3.825,-30.50625,-22.78125
1707067604629,-0.5665008,-0.041874398,9.868001,4.5813544E-4,-0.0014507623,-3.0542363E-4,-3.80625,-30.375002,-22.7625
1707067604831,-0.56350976,-0.03678965,9.865608,5.344914E-4,-0.0013744063,-3.0542363E-4,-3.8812501,-30.375002,-22.743752
1707067605033,-0.5626124,-0.039481573,9.866206,5.344914E-4,-0.0014507623,-3.0542363E-4,-3.9375002,-30.35625,-22.743752
1707067605236,-0.56111693,-0.040677983,9.867702,4.5813544E-4,-0.0014507623,-2.2906772E-4,-3.9562502,-30.45,-22.7625
1707067605438,-0.5617151,-0.037686955,9.866206,4.5813544E-4,-0.0012980504,-7.635591E-5,-3.91875,-30.487501,-22.7625
1707067605640,-0.5623133,-0.038285162,9.867702,5.344914E-4,-0.0012216945,-1.5271181E-4,-3.9750001,-30.54375,-22.78125
1707067605843,-0.56440705,-0.04007978,9.867104,3.8177954E-4,-0.0013744063,-7.635591E-5,-3.9750001,-30.618752,-22.743752
1707067606045,-0.5620142,-0.038584266,9.866206,4.5813544E-4,-0.0013744063,-1.5271181E-4,-3.9750001,-30.750002,-22.706251
1707067606247,-0.5629115,-0.039481573,9.865907,3.8177954E-4,-0.0022143214,-7.635591E-4,-3.99375,-30.7875,-22.7625
1707067606449,-0.55363935,-0.04875376,9.867402,3.0542363E-4,-0.0017561859,2.2906772E-4,-3.91875,-30.7875,-22.78125
1707067606652,-0.56141603,-0.044566322,9.87817,-0.0,-0.0029015245,7.635591E-5,-3.825,-30.7875,-22.85625
1707067606854,-0.55064833,-0.041575294,9.863514,6.8720314E-4,-5.344914E-4,0.0,-3.80625,-30.656252,-22.85625
1707067607056,-0.5557331,-0.040677983,9.868599,2.2906772E-4,-0.0020616094,-5.344914E-4,-3.825,-30.618752,-22.875
1707067607258,-0.5518447,-0.040977087,9.867702,4.5813544E-4,-0.0012216945,-3.0542363E-4,-3.7875001,-30.750002,-22.893751
1707067607461,-0.5494519,-0.041575294,9.866804,5.344914E-4,-0.0012980504,0.0,-3.7500002,-30.750002,-22.893751
1707067607663,-0.5623133,-0.041575294,9.865907,4.5813544E-4,-0.0015271181,-3.0542363E-4,-3.7875001,-30.656252,-22.931252
1707067607865,-0.5593223,-0.03918247,9.867702,3.8177954E-4,-0.0011453386,-7.635591E-5,-3.825,-30.656252,-22.9125
1707067608067,-0.5554339,-0.037686955,9.8682995,3.8177954E-4,-0.0014507623,-2.2906772E-4,-3.8812501,-30.712502,-22.893751
1707067608270,-0.55692947,-0.0424726,9.868599,5.344914E-4,-0.0014507623,-2.2906772E-4,-3.9375002,-30.69375,-22.800001
1707067608472,-0.5605187,-0.040378883,9.865309,4.5813544E-4,-0.0014507623,1.5271181E-4,-3.9,-30.712502,-22.800001
1707067608675,-0.5620142,-0.044865426,9.879965,6.1084726E-4,-6.1084726E-4,3.0542363E-4,-3.9750001,-30.768751,-22.743752
1707067608877,-0.56350976,-0.046959143,9.864411,6.1084726E-4,-0.0011453386,-1.5271181E-4,-3.9750001,-30.656252,-22.6875
1707067609079,-0.55334026,-0.040378883,9.866505,4.5813544E-4,-0.0012216945,-2.2906772E-4,-3.9750001,-30.581251,-22.650002
1707067609281,-0.56500524,-0.03888337,9.865009,4.5813544E-4,-0.0012216945,1.5271181E-4,-3.9375002,-30.54375,-22.63125
1707067609484,-0.55483574,-0.042173497,9.864711,5.344914E-4,-0.0014507623,-2.2906772E-4,-3.91875,-30.768751,-22.5
1707067609686,-0.5587241,-0.04007978,9.867402,4.5813544E-4,-0.0012216945,-2.2906772E-4,-3.8625002,-30.69375,-22.462502
